Folder: BTP_ProjectDetail

File: BTPDataSet.csv
Ti,Nb,Zr,Sn,Modulus,Ms,e/a ratio,Bo,Md,Mo eq.,Bo + Md,Yield Strength (MPa),Hardness (HV),Elongation (%),Corrosion Resistance,Inferred_Phase,Fabrication Method,Heat Treatment,Cooling Rate
82,10,4,4,83.3313,801.62,4.0567,2.80536,2.45079,5.88,5.25614,538,363,7.55724,No,BCC (β),Arc Melting,700°C/2h → Furnace Cool,Slow
81,10,4,5,83.0235,766.902,4.05708,2.8032,2.44926,6.18,5.25246,550,386,13.8657,No,BCC (β),Cold Rolling + Annealing,1000°C/1h → Water Quench,Slow
80,10,4,6,82.0635,730.862,4.05746,2.801,2.44772,6.48,5.24872,562,319,10.1468,No,BCC (β),Arc Melting,800°C/1h → Water Quench,Slow
79,10,4,7,80.3222,693.429,4.05784,2.79878,2.44615,6.78,5.24493,574,445,10.4781,Yes,BCC (β),Laser Additive Manufacturing,700°C/2h → Furnace Cool,Slow
78,10,4,8,77.7225,654.522,4.05823,2.79653,2.44456,7.08,5.24109,586,413,6.06395,Yes,BCC (β),Cold Rolling + Annealing,700°C/2h → Furnace Cool,Slow
77,10,4,9,74.289,614.052,4.05863,2.79425,2.44295,7.38,5.2372,598,436,5.33016,Yes,BCC (β),Powder Metallurgy (Sintering),700°C/2h → Furnace Cool,Slow
76,10,4,10,70.1895,571.935,4.05903,2.79194,2.44132,7.68,5.23326,610,416,12.4438,Yes,BCC (β),Laser Additive Manufacturing,1000°C/1h → Water Quench,Slow
75,10,4,11,65.7372,528.111,4.05943,2.78959,2.43967,7.98,5.1881,622,497,10.6615,Yes,BCC (β),Powder Metallurgy (Sintering),700°C/2h → Furnace Cool,Slow
74,10,4,12,61.3348,482.573,4.05985,2.78721,2.43799,8.28,5.22521,634,362,9.9025,Yes,BCC (β),Arc Melting,800°C/1h → Water Quench,Slow
81,10,5,4,83.0786,781.691,4.057,2.80716,2.45363,6.35,5.26079,548,346,5.7712,No,BCC (β),Arc Melting,500°C/4h → Air Cool,Slow
80,10,5,5,82.3704,745.834,4.05738,2.805,2.45212,6.65,5.25711,560,357,9.36263,No,BCC (β),Cold Rolling + Annealing,800°C/1h → Water Quench,Slow
79,10,5,6,80.9227,708.587,4.05776,2.8028,2.45058,6.95,5.25339,572,435,11.6316,Yes,BCC (β),Cold Rolling + Annealing,700°C/2h → Furnace Cool,Slow
78,10,5,7,78.6331,669.867,4.05815,2.80058,2.44903,7.25,5.24961,584,415,14.9223,Yes,BCC (β),Powder Metallurgy (Sintering),700°C/2h → Furnace Cool,Slow
77,10,5,8,75.4826,629.588,4.05855,2.79833,2.44745,7.55,5.24578,596,380,7.90176,Yes,BCC (β),Laser Additive Manufacturing,700°C/2h → Furnace Cool,Slow
76,10,5,9,71.5833,587.667,4.05895,2.79605,2.44586,7.85,5.2419,608,472,11.1005,Yes,BCC (β),Cold Rolling + Annealing,700°C/2h → Furnace Cool,Slow
75,10,5,10,67.1981,544.053,4.05935,2.79374,2.44424,8.15,5.23797,620,363,7.6402,Yes,BCC (β),Powder Metallurgy (Sintering),700°C/2h → Furnace Cool,Slow
74,10,5,11,62.7076,498.742,4.05976,2.79139,2.44259,8.45,5.23398,632,498,5.03594,Yes,BCC (β),Laser Additive Manufacturing,800°C/1h → Water Quench,Slow
73,10,5,12,58.5216,451.818,4.06018,2.78901,2.44093,8.75,5.22994,644,493,14.9407,Yes,BCC (β),Powder Metallurgy (Sintering),1000°C/1h → Water Quench,Slow
80,10,6,4,82.586,761.917,4.0573,2.80898,2.45651,6.82,5.26549,558,345,7.62246,No,BCC (β),Laser Additive Manufacturing,1000°C/1h → Water Quench,Slow
79,10,6,5,81.4196,724.87,4.05768,2.80681,2.45501,7.12,5.26182,570,408,5.83738,Yes,BCC (β),Powder Metallurgy (Sintering),800°C/1h → Water Quench,Slow
78,10,6,6,79.4394,686.354,4.05807,2.80462,2.45348,7.42,5.25811,582,405,8.72573,Yes,BCC (β),Cold Rolling + Annealing,800°C/1h → Water Quench,Slow
77,10,6,7,76.5895,646.282,4.05847,2.8024,2.45194,7.72,5.25434,594,444,12.1279,Yes,BCC (β),Laser Additive Manufacturing,800°C/1h → Water Quench,Slow
76,10,6,8,72.9288,604.577,4.05886,2.80015,2.45037,8.02,5.25053,606,431,6.45785,Yes,BCC (β),Powder Metallurgy (Sintering),1000°C/1h → Water Quench,Slow
75,10,6,9,68.6657,561.189,4.05927,2.79787,2.44879,8.32,5.24666,618,440,10.4889,Yes,BCC (β),Powder Metallurgy (Sintering),800°C/1h → Water Quench,Slow
74,10,6,10,64.1455,516.126,4.05968,2.79556,2.44718,8.62,5.24274,630,413,7.54288,Yes,BCC (β),Cold Rolling + Annealing,800°C/1h → Water Quench,Slow
73,10,6,11,59.7804,469.478,4.06009,2.79321,2.44555,8.92,5.23876,642,450,10.3885,Yes,BCC (β),Arc Melting,1000°C/1h → Water Quench,Slow
72,10,6,12,55.9439,421.46,4.06051,2.79083,2.4439,9.22,5.23473,654,419,14.5172,Yes,BCC (β),Laser Additive Manufacturing,700°C/2h → Furnace Cool,Slow
79,10,7,4,81.8158,742.341,4.05761,2.81081,2.45942,7.29,5.27023,568,428,7.67452,Yes,BCC (β),Powder Metallurgy (Sintering),1000°C/1h → Water Quench,Slow
78,10,7,5,80.1392,704.044,4.05799,2.80865,2.45793,7.59,5.26658,580,428,10.1206,Yes,BCC (β),Cold Rolling + Annealing,500°C/4h → Air Cool,Slow
77,10,7,6,77.6,664.195,4.05839,2.80646,2.45641,7.89,5.26288,592,489,11.2245,Yes,BCC (β),Powder Metallurgy (Sintering),1000°C/1h → Water Quench,Slow
76,10,7,7,74.209,622.72,4.05878,2.80424,2.45488,8.19,5.25912,604,382,7.61344,Yes,BCC (β),Powder Metallurgy (Sintering),800°C/1h → Water Quench,Slow
75,10,7,8,70.1178,579.576,4.05919,2.80199,2.45333,8.49,5.25532,616,393,13.5565,Yes,BCC (β),Powder Metallurgy (Sintering),1000°C/1h → Water Quench,Slow
74,10,7,9,65.6269,534.776,4.05959,2.79971,2.45175,8.79,5.25146,628,384,5.43021,Yes,BCC (β),Arc Melting,500°C/4h → Air Cool,Slow
73,10,7,10,61.1358,488.422,4.06001,2.79739,2.45016,9.09,5.24755,640,482,6.17787,Yes,BCC (β),Laser Additive Manufacturing,1000°C/1h → Water Quench,Slow
72,10,7,11,57.0451,440.739,4.06043,2.79505,2.44854,9.39,5.24359,652,494,10.0558,Yes,BCC (β),Arc Melting,800°C/1h → Water Quench,Slow
71,10,7,12,53.6563,392.103,4.06085,2.79267,2.4469,9.69,5.23957,664,436,5.37822,Yes,BCC (β),Cold Rolling + Annealing,1000°C/1h → Water Quench,Slow
78,10,8,4,80.7324,722.99,4.05791,2.81267,2.46236,7.76,5.27503,578,406,14.2562,Yes,BCC (β),Arc Melting,800°C/1h → Water Quench,Slow
77,10,8,5,78.5073,683.377,4.05831,2.81051,2.46088,8.06,5.27139,590,403,10.1465,Yes,BCC (β),Cold Rolling + Annealing,700°C/2h → Furnace Cool,Slow
76,10,8,6,75.409,642.146,4.0587,2.80832,2.45938,8.36,5.2677,602,375,14.9683,Yes,BCC (β),Powder Metallurgy (Sintering),800°C/1h → Water Quench,Slow
75,10,8,7,71.5335,599.26,4.0591,2.8061,2.45786,8.66,5.26396,614,467,12.2416,Yes,BCC (β),Laser Additive Manufacturing,1000°C/1h → Water Quench,Slow
74,10,8,8,67.1293,554.738,4.05951,2.80385,2.45632,8.96,5.26017,626,363,9.74072,Yes,BCC (β),Arc Melting,800°C/1h → Water Quench,Slow
73,10,8,9,62.5694,508.692,4.05992,2.80157,2.45475,9.26,5.25632,638,434,14.2255,Yes,BCC (β),Cold Rolling + Annealing,1000°C/1h → Water Quench,Slow
72,10,8,10,58.2672,461.358,4.06034,2.79926,2.45317,9.56,5.25242,650,472,13.8047,Yes,BCC (β),Laser Additive Manufacturing,500°C/4h → Air Cool,Slow
71,10,8,11,54.5707,413.125,4.06077,2.79691,2.45156,9.86,5.24847,662,433,13.8003,Yes,BCC (β),Cold Rolling + Annealing,500°C/4h → Air Cool,Slow
70,10,8,12,51.6872,364.553,4.0612,2.79453,2.44993,10.16,5.24446,674,398,13.7049,Yes,BCC (β),Cold Rolling + Annealing,800°C/1h → Water Quench,Slow
77,10,9,4,79.3076,703.875,4.05823,2.81455,2.46533,8.23,5.27987,588,429,8.42283,Yes,BCC (β),Powder Metallurgy (Sintering),800°C/1h → Water Quench,Slow
76,10,9,5,76.5172,662.9,4.05862,2.81239,2.46386,8.53,5.27625,600,419,12.6712,Yes,BCC (β),Cold Rolling + Annealing,700°C/2h → Furnace Cool,Slow
75,10,9,6,72.894,620.281,4.05902,2.8102,2.46237,8.83,5.27257,612,406,10.6456,Yes,BCC (β),Laser Additive Manufacturing,500°C/4h → Air Cool,Slow
74,10,9,7,68.6302,576.048,4.05943,2.80798,2.46086,9.13,5.26884,624,436,11.9987,Yes,BCC (β),Powder Metallurgy (Sintering),1000°C/1h → Water Quench,Slow
73,10,9,8,64.0605,530.321,4.05984,2.80573,2.45933,9.43,5.26506,636,366,14.4315,Yes,BCC (β),Powder Metallurgy (Sintering),1000°C/1h → Water Quench,Slow
72,10,9,9,59.5964,483.346,4.06026,2.80345,2.45778,9.73,5.26123,648,394,10.3056,Yes,BCC (β),Cold Rolling + Annealing,800°C/1h → Water Quench,Slow
71,10,9,10,55.6217,435.525,4.06068,2.80114,2.45621,10.03,5.25735,660,442,11.1056,Yes,BCC (β),Powder Metallurgy (Sintering),500°C/4h → Air Cool,Slow
70,10,9,11,52.401,387.428,4.06111,2.79879,2.45462,10.33,5.25341,672,496,13.9898,Yes,BCC (β),Powder Metallurgy (Sintering),800°C/1h → Water Quench,Slow
69,10,9,12,50.041,339.794,4.06155,2.79641,2.453,10.63,5.24941,684,356,10.1846,Yes,BCC (β),Laser Additive Manufacturing,1000°C/1h → Water Quench,Slow
76,10,10,4,77.5249,685.015,4.05854,2.81644,2.46833,8.7,5.28477,598,468,11.6546,Yes,BCC (β),Cold Rolling + Annealing,800°C/1h → Water Quench,Slow
75,10,10,5,74.1825,642.672,4.05894,2.81429,2.46687,9,5.28116,610,438,14.0909,Yes,BCC (β),Powder Metallurgy (Sintering),500°C/4h → Air Cool,Slow
74,10,10,6,70.1076,598.734,4.05934,2.8121,2.4654,9.3,5.2775,622,351,5.42618,Yes,BCC (β),Powder Metallurgy (Sintering),500°C/4h → Air Cool,Slow
73,10,10,7,65.5871,553.331,4.05976,2.80988,2.4639,9.6,5.27378,634,451,14.8861,Yes,BCC (β),Cold Rolling + Annealing,500°C/4h → Air Cool,Slow
72,10,10,8,61.0157,506.721,4.06017,2.80763,2.46239,9.9,5.27002,646,387,10.0039,Yes,BCC (β),Arc Melting,800°C/1h → Water Quench,Slow
71,10,10,9,56.8006,459.315,4.06059,2.80535,2.46085,10.2,5.2662,658,350,7.27381,Yes,BCC (β),Laser Additive Manufacturing,800°C/1h → Water Quench,Slow
70,10,10,10,53.2582,411.694,4.06102,2.80304,2.45929,10.5,5.26233,670,402,7.68094,Yes,BCC (β),Laser Additive Manufacturing,800°C/1h → Water Quench,Slow
69,10,10,11,50.5539,364.606,4.06146,2.80069,2.45771,10.8,5.2584,682,431,5.95974,Yes,BCC (β),Cold Rolling + Annealing,500°C/4h → Air Cool,Slow
68,10,10,12,48.7029,318.937,4.0619,2.79831,2.4561,11.1,5.25442,694,483,12.7575,Yes,BCC (β),Arc Melting,800°C/1h → Water Quench,Slow
75,10,11,4,75.3853,666.45,4.05886,2.81836,2.47136,9.17,5.28973,608,466,7.14833,Yes,BCC (β),Cold Rolling + Annealing,1000°C/1h → Water Quench,Slow
74,10,11,5,71.5411,622.81,4.05926,2.81621,2.46992,9.47,5.28613,620,354,8.90615,Yes,BCC (β),Laser Additive Manufacturing,1000°C/1h → Water Quench,Slow
73,10,11,6,67.1265,577.732,4.05967,2.81402,2.46846,9.77,5.28248,632,441,8.17576,Yes,BCC (β),Cold Rolling + Annealing,1000°C/1h → Water Quench,Slow
72,10,11,7,62.5059,531.486,4.06009,2.8118,2.46698,10.07,5.27878,644,403,12.1465,Yes,BCC (β),Arc Melting,1000°C/1h → Water Quench,Slow
71,10,11,8,58.0953,484.493,4.06051,2.80955,2.46547,10.37,5.27503,656,372,14.288,Yes,BCC (β),Laser Additive Manufacturing,700°C/2h → Furnace Cool,Slow
70,10,11,9,54.2551,437.344,4.06093,2.80727,2.46395,10.67,5.27122,668,483,12.8868,Yes,BCC (β),Laser Additive Manufacturing,800°C/1h → Water Quench,Slow
69,10,11,10,51.2095,390.793,4.06137,2.80496,2.4624,10.97,5.26737,680,479,10.1105,Yes,BCC (β),Cold Rolling + Annealing,700°C/2h → Furnace Cool,Slow
68,10,11,11,49.0252,345.728,4.06181,2.80262,2.46084,11.27,5.26345,692,475,8.3598,Yes,BCC (β),Powder Metallurgy (Sintering),1000°C/1h → Water Quench,Slow
67,10,11,12,47.6441,303.122,4.06225,2.80024,2.45924,11.57,5.25948,704,499,11.2212,Yes,BCC (β),Cold Rolling + Annealing,700°C/2h → Furnace Cool,Slow
74,10,12,4,72.9123,648.278,4.05918,2.8203,2.47443,9.64,5.29473,618,480,11.2898,Yes,BCC (β),Arc Melting,800°C/1h → Water Quench,Slow
73,10,12,5,68.6562,603.522,4.05959,2.81815,2.473,9.94,5.29115,630,479,5.06689,Yes,BCC (β),Cold Rolling + Annealing,800°C/1h → Water Quench,Slow
72,10,12,6,64.0459,557.634,4.06,2.81596,2.47155,10.24,5.28752,642,389,14.4246,Yes,BCC (β),Powder Metallurgy (Sintering),800°C/1h → Water Quench,Slow
71,10,12,7,59.491,511.045,4.06042,2.81375,2.47009,10.54,5.28383,654,401,8.07668,Yes,BCC (β),Arc Melting,500°C/4h → Air Cool,Slow
70,10,12,8,55.3849,464.355,4.06085,2.8115,2.4686,10.84,5.28009,666,385,12.7694,Yes,BCC (β),Cold Rolling + Annealing,700°C/2h → Furnace Cool,Slow
69,10,12,9,52.0081,418.324,4.06128,2.80922,2.46708,11.14,5.2763,678,444,10.9205,Yes,BCC (β),Laser Additive Manufacturing,500°C/4h → Air Cool,Slow
68,10,12,10,49.4837,373.843,4.06172,2.80691,2.46555,11.44,5.27246,690,420,6.45732,Yes,BCC (β),Arc Melting,800°C/1h → Water Quench,Slow
67,10,12,11,47.7935,331.879,4.06216,2.80456,2.464,11.74,5.26856,702,367,14.7445,Yes,BCC (β),Powder Metallurgy (Sintering),500°C/4h → Air Cool,Slow
66,10,12,12,46.828,293.405,4.06261,2.80218,2.46242,12.04,5.26461,714,394,9.31383,Yes,BCC (β),Powder Metallurgy (Sintering),700°C/2h → Furnace Cool,Slow
81,11,4,4,82.2325,779.673,4.06271,2.8072,2.45067,6.16,5.25788,553,294,14.5493,No,BCC (β),Laser Additive Manufacturing,500°C/4h → Air Cool,Slow
80,11,4,5,81.5692,744.185,4.06312,2.80504,2.44914,6.46,5.25418,565,391,14.387,No,BCC (β),Arc Melting,800°C/1h → Water Quench,Slow
79,11,4,6,80.1785,707.338,4.06355,2.80285,2.44759,6.76,5.25043,577,393,13.5239,No,BCC (β),Powder Metallurgy (Sintering),1000°C/1h → Water Quench,Slow
78,11,4,7,77.9534,669.055,4.06397,2.80063,2.44601,7.06,5.24664,589,494,5.36595,Yes,BCC (β),Arc Melting,700°C/2h → Furnace Cool,Slow
77,11,4,8,74.8673,629.247,4.06441,2.79838,2.44441,7.36,5.24279,601,490,8.19879,Yes,BCC (β),Cold Rolling + Annealing,1000°C/1h → Water Quench,Slow
76,11,4,9,71.0235,587.825,4.06485,2.79609,2.4428,7.66,5.23889,613,391,7.8918,Yes,BCC (β),Arc Melting,500°C/4h → Air Cool,Slow
75,11,4,10,66.6777,544.717,4.06529,2.79378,2.44115,7.96,5.23494,625,385,9.08168,Yes,BCC (β),Powder Metallurgy (Sintering),500°C/4h → Air Cool,Slow
74,11,4,11,62.2089,499.891,4.06575,2.79144,2.43949,8.26,5.23093,637,364,9.09858,Yes,BCC (β),Arc Melting,800°C/1h → Water Quench,Slow
73,11,4,12,58.032,453.382,4.0662,2.78906,2.4378,8.56,5.22686,649,455,14.9222,Yes,BCC (β),Laser Additive Manufacturing,700°C/2h → Furnace Cool,Slow
80,11,5,4,81.7544,759.091,4.06304,2.80902,2.45354,6.63,5.26256,563,394,7.7866,No,BCC (β),Laser Additive Manufacturing,700°C/2h → Furnace Cool,Slow
79,11,5,5,80.6399,722.432,4.06346,2.80686,2.45201,6.93,5.25887,575,357,10.191,No,BCC (β),Arc Melting,1000°C/1h → Water Quench,Slow
78,11,5,6,78.7211,684.337,4.06389,2.80467,2.45047,7.23,5.25514,587,412,12.2491,Yes,BCC (β),Arc Melting,700°C/2h → Furnace Cool,Slow
77,11,5,7,75.9355,644.72,4.06432,2.80245,2.44891,7.53,5.25135,599,453,7.16423,Yes,BCC (β),Laser Additive Manufacturing,800°C/1h → Water Quench,Slow
76,11,5,8,72.3335,603.495,4.06476,2.8002,2.44732,7.83,5.24752,611,458,5.96205,Yes,BCC (β),Powder Metallurgy (Sintering),1000°C/1h → Water Quench,Slow
75,11,5,9,68.1151,560.593,4.0652,2.79791,2.44571,8.13,5.24363,623,460,10.0034,Yes,BCC (β),Powder Metallurgy (Sintering),1000°C/1h → Water Quench,Slow
74,11,5,10,63.6219,515.988,4.06565,2.7956,2.44408,8.43,5.23968,635,367,9.92415,Yes,BCC (β),Powder Metallurgy (Sintering),800°C/1h → Water Quench,Slow
73,11,5,11,59.2687,469.725,4.06611,2.79326,2.44243,8.73,5.23569,647,384,7.24411,Yes,BCC (β),Laser Additive Manufacturing,500°C/4h → Air Cool,Slow
72,11,5,12,55.4376,421.953,4.06657,2.79088,2.44075,9.03,5.23163,659,418,8.5881,Yes,BCC (β),Powder Metallurgy (Sintering),500°C/4h → Air Cool,Slow
79,11,6,4,81.0032,738.648,4.06337,2.81086,2.45643,7.1,5.26729,573,476,5.99416,No,BCC (β),Laser Additive Manufacturing,500°C/4h → Air Cool,Slow
78,11,6,5,79.3842,700.759,4.0638,2.8087,2.45492,7.4,5.26361,585,467,13.4898,Yes,BCC (β),Cold Rolling + Annealing,700°C/2h → Furnace Cool,Slow
77,11,6,6,76.9081,661.35,4.06423,2.80651,2.45338,7.7,5.25989,597,447,6.39651,Yes,BCC (β),Powder Metallurgy (Sintering),800°C/1h → Water Quench,Slow
76,11,6,7,73.5777,620.338,4.06467,2.80429,2.45183,8,5.25612,609,475,12.2682,Yes,BCC (β),Powder Metallurgy (Sintering),500°C/4h → Air Cool,Slow
75,11,6,8,69.536,577.66,4.06511,2.80204,2.45026,8.3,5.25229,621,365,7.99329,Yes,BCC (β),Laser Additive Manufacturing,500°C/4h → Air Cool,Slow
74,11,6,9,65.0777,533.296,4.06556,2.79975,2.44866,8.6,5.24842,633,396,11.9408,Yes,BCC (β),Cold Rolling + Annealing,1000°C/1h → Water Quench,Slow
73,11,6,10,60.6025,487.298,4.06602,2.79744,2.44704,8.9,5.24448,645,411,7.67865,Yes,BCC (β),Powder Metallurgy (Sintering),800°C/1h → Water Quench,Slow
72,11,6,11,56.5175,439.828,4.06648,2.7951,2.4454,9.2,5.2405,657,455,9.93613,Yes,BCC (β),Arc Melting,700°C/2h → Furnace Cool,Slow
71,11,6,12,53.1349,391.188,4.06695,2.79272,2.44374,9.5,5.23645,669,410,9.07756,Yes,BCC (β),Powder Metallurgy (Sintering),800°C/1h → Water Quench,Slow
78,11,7,4,79.9428,718.38,4.06371,2.81272,2.45935,7.57,5.27207,583,362,12.0458,Yes,BCC (β),Laser Additive Manufacturing,500°C/4h → Air Cool,Slow
77,11,7,5,77.7786,679.194,4.06414,2.81056,2.45785,7.87,5.26841,595,484,14.7861,Yes,BCC (β),Arc Melting,800°C/1h → Water Quench,Slow
76,11,7,6,74.7418,638.412,4.06458,2.80837,2.45633,8.17,5.2647,607,440,5.52388,Yes,BCC (β),Powder Metallurgy (Sintering),700°C/2h → Furnace Cool,Slow
75,11,7,7,70.9197,595.974,4.06502,2.80615,2.45479,8.47,5.26094,619,387,5.71455,Yes,BCC (β),Arc Melting,800°C/1h → Water Quench,Slow
74,11,7,8,66.5537,551.867,4.06547,2.8039,2.45323,8.77,5.25712,631,487,11.7682,Yes,BCC (β),Cold Rolling + Annealing,500°C/4h → Air Cool,Slow
73,11,7,9,62.0144,506.152,4.06592,2.80162,2.45164,9.07,5.25326,643,385,14.7353,Yes,BCC (β),Arc Melting,800°C/1h → Water Quench,Slow
72,11,7,10,57.7198,459.002,4.06638,2.7993,2.45004,9.37,5.24934,655,445,10.7543,Yes,BCC (β),Cold Rolling + Annealing,1000°C/1h → Water Quench,Slow
71,11,7,11,54.0275,410.731,4.06685,2.79696,2.44841,9.67,5.24536,667,490,9.89272,Yes,BCC (β),Arc Melting,800°C/1h → Water Quench,Slow
70,11,7,12,51.155,361.818,4.06733,2.79458,2.44676,9.97,5.24133,679,457,14.6548,Yes,BCC (β),Powder Metallurgy (Sintering),700°C/2h → Furnace Cool,Slow
77,11,8,4,78.5434,698.307,4.06405,2.81459,2.46231,8.04,5.2769,593,486,8.2881,Yes,BCC (β),Arc Melting,800°C/1h → Water Quench,Slow
76,11,8,5,75.8143,657.768,4.06449,2.81243,2.46082,8.34,5.27325,605,484,6.78092,Yes,BCC (β),Arc Melting,500°C/4h → Air Cool,Slow
[...]
61,24,6,9,48.377,153.983,4.15429,2.82635,2.44687,12.24,5.27322,828,465,12.9756,Yes,FCC/HCP (α),Arc Melting,800°C/1h → Water Quench,Slow
60,24,6,10,49.9888,114.186,4.15545,2.82405,2.44511,12.54,5.26916,840,373,14.9929,Yes,FCC/HCP (α),Laser Additive Manufacturing,800°C/1h → Water Quench,Fast
59,24,6,11,51.8363,79.1671,4.15662,2.82172,2.44332,12.84,5.26504,852,490,10.7283,Yes,FCC/HCP (α),Cold Rolling + Annealing,1000°C/1h → Water Quench,Fast
58,24,6,12,53.8131,49.7198,4.15782,2.81935,2.44151,13.14,5.26086,864,407,13.6451,Yes,FCC/HCP (α),Arc Melting,800°C/1h → Water Quench,Fast
65,24,7,4,47.5778,361.221,4.14961,2.83949,2.45843,11.21,5.29792,778,430,14.5145,Yes,BCC (β),Powder Metallurgy (Sintering),800°C/1h → Water Quench,Slow
64,24,7,5,46.2805,312.974,4.1507,2.83736,2.45681,11.51,5.29417,790,460,11.4941,Yes,FCC/HCP (α),Arc Melting,700°C/2h → Furnace Cool,Slow
63,24,7,6,45.9198,265.533,4.1518,2.8352,2.45516,11.81,5.29036,802,359,13.1025,Yes,FCC/HCP (α),Powder Metallurgy (Sintering),800°C/1h → Water Quench,Slow
62,24,7,7,46.3472,219.88,4.15292,2.833,2.45349,12.11,5.28649,814,427,13.8626,Yes,FCC/HCP (α),Powder Metallurgy (Sintering),500°C/4h → Air Cool,Slow
61,24,7,8,47.3809,177.073,4.15406,2.83077,2.4518,12.41,5.28257,826,382,11.5324,Yes,FCC/HCP (α),Arc Melting,700°C/2h → Furnace Cool,Slow
60,24,7,9,48.846,138.159,4.15521,2.82851,2.45008,12.71,5.27859,838,422,14.9499,Yes,FCC/HCP (α),Laser Additive Manufacturing,700°C/2h → Furnace Cool,Fast
59,24,7,10,50.5937,104.089,4.15638,2.82622,2.44833,13.01,5.27455,850,484,6.19333,Yes,FCC/HCP (α),Laser Additive Manufacturing,500°C/4h → Air Cool,Fast
58,24,7,11,52.5068,75.6318,4.15757,2.82389,2.44656,13.31,5.27045,862,424,11.1362,Yes,FCC/HCP (α),Cold Rolling + Annealing,500°C/4h → Air Cool,Fast
57,24,7,12,54.4978,53.3294,4.15878,2.82152,2.44476,13.61,5.26628,874,423,8.15594,Yes,FCC/HCP (α),Cold Rolling + Annealing,800°C/1h → Water Quench,Fast
64,24,8,4,46.2524,335.331,4.15047,2.84167,2.46161,11.68,5.30327,788,482,7.05921,Yes,FCC/HCP (α),Laser Additive Manufacturing,1000°C/1h → Water Quench,Slow
63,24,8,5,45.5386,288.519,4.15157,2.83954,2.46,11.98,5.29953,800,355,12.6913,Yes,FCC/HCP (α),Laser Additive Manufacturing,1000°C/1h → Water Quench,Slow
62,24,8,6,45.6726,243.584,4.15269,2.83738,2.45837,12.28,5.29574,812,475,14.4425,Yes,FCC/HCP (α),Powder Metallurgy (Sintering),500°C/4h → Air Cool,Slow
61,24,8,7,46.4791,201.578,4.15382,2.83519,2.45671,12.58,5.2919,824,358,6.99798,Yes,FCC/HCP (α),Cold Rolling + Annealing,1000°C/1h → Water Quench,Slow
60,24,8,8,47.7779,163.54,4.15498,2.83296,2.45503,12.88,5.28799,836,432,6.34601,Yes,FCC/HCP (α),Laser Additive Manufacturing,500°C/4h → Air Cool,Slow
59,24,8,9,49.41,130.401,4.15614,2.8307,2.45332,13.18,5.28403,848,375,5.39409,Yes,FCC/HCP (α),Cold Rolling + Annealing,500°C/4h → Air Cool,Fast
58,24,8,10,51.2471,102.911,4.15733,2.82841,2.45159,13.48,5.28,860,380,8.01073,Yes,FCC/HCP (α),Laser Additive Manufacturing,700°C/2h → Furnace Cool,Fast
57,24,8,11,53.192,81.5874,4.15853,2.82609,2.44983,13.78,5.27592,872,405,5.83567,Yes,FCC/HCP (α),Laser Additive Manufacturing,1000°C/1h → Water Quench,Fast
56,24,8,12,55.1738,66.6946,4.15975,2.82372,2.44805,14.08,5.27177,884,430,5.89047,Yes,FCC/HCP (α),Cold Rolling + Annealing,1000°C/1h → Water Quench,Fast
63,24,9,4,45.3054,312.926,4.15135,2.84387,2.46482,12.15,5.30869,798,499,11.4958,Yes,FCC/HCP (α),Powder Metallurgy (Sintering),700°C/2h → Furnace Cool,Slow
62,24,9,5,45.1233,268.703,4.15246,2.84174,2.46322,12.45,5.30497,810,365,6.31281,Yes,FCC/HCP (α),Arc Melting,700°C/2h → Furnace Cool,Slow
61,24,9,6,45.6791,227.488,4.15359,2.83959,2.46161,12.75,5.30119,822,483,8.01502,Yes,FCC/HCP (α),Arc Melting,800°C/1h → Water Quench,Slow
60,24,9,7,46.7907,190.307,4.15474,2.8374,2.45996,13.05,5.29736,834,495,14.5625,Yes,FCC/HCP (α),Laser Additive Manufacturing,700°C/2h → Furnace Cool,Slow
59,24,9,8,48.29,158.075,4.1559,2.83518,2.4583,13.35,5.29348,846,380,5.11707,Yes,FCC/HCP (α),Powder Metallurgy (Sintering),700°C/2h → Furnace Cool,Slow
58,24,9,9,50.0379,131.518,4.15709,2.83292,2.45661,13.65,5.28953,858,409,11.3724,Yes,FCC/HCP (α),Laser Additive Manufacturing,500°C/4h → Air Cool,Fast
57,24,9,10,51.9265,111.134,4.15829,2.83063,2.45489,13.95,5.28552,870,382,11.5305,Yes,FCC/HCP (α),Cold Rolling + Annealing,700°C/2h → Furnace Cool,Fast
56,24,9,11,53.8764,97.1616,4.1595,2.82831,2.45314,14.25,5.28145,882,441,12.1021,Yes,FCC/HCP (α),Laser Additive Manufacturing,700°C/2h → Furnace Cool,Fast
55,24,9,12,55.8314,89.6026,4.16074,2.82595,2.45137,14.55,5.27732,894,489,5.76628,Yes,FCC/HCP (α),Cold Rolling + Annealing,700°C/2h → Furnace Cool,Fast
62,24,10,4,44.707,295.22,4.15223,2.84609,2.46807,12.62,5.31416,808,401,10.7313,Yes,FCC/HCP (α),Laser Additive Manufacturing,500°C/4h → Air Cool,Slow
61,24,10,5,44.9885,254.776,4.15336,2.84397,2.46649,12.92,5.31046,820,456,11.1259,Yes,FCC/HCP (α),Cold Rolling + Annealing,1000°C/1h → Water Quench,Slow
60,24,10,6,45.891,218.426,4.1545,2.84182,2.46489,13.22,5.30671,832,420,7.96813,Yes,FCC/HCP (α),Laser Additive Manufacturing,800°C/1h → Water Quench,Slow
59,24,10,7,47.2392,187.066,4.15567,2.83964,2.46326,13.52,5.3029,844,490,12.5624,Yes,FCC/HCP (α),Laser Additive Manufacturing,500°C/4h → Air Cool,Slow
58,24,10,8,48.8831,161.401,4.15684,2.83742,2.46161,13.82,5.29903,856,360,5.15436,Yes,FCC/HCP (α),Arc Melting,800°C/1h → Water Quench,Slow
57,24,10,9,50.7043,141.904,4.15804,2.83517,2.45993,14.12,5.2951,868,479,10.533,Yes,FCC/HCP (α),Arc Melting,800°C/1h → Water Quench,Fast
56,24,10,10,52.614,128.795,4.15925,2.83288,2.45823,14.42,5.29111,880,459,13.3614,Yes,FCC/HCP (α),Laser Additive Manufacturing,1000°C/1h → Water Quench,Fast
55,24,10,11,54.5484,122.054,4.16049,2.83056,2.4565,14.72,5.28706,892,420,9.89788,Yes,FCC/HCP (α),Cold Rolling + Annealing,1000°C/1h → Water Quench,Fast
54,24,10,12,56.4633,121.458,4.16174,2.82821,2.45474,15.02,5.28295,904,473,12.0341,Yes,FCC/HCP (α),Powder Metallurgy (Sintering),1000°C/1h → Water Quench,Fast
61,24,11,4,44.4152,283.399,4.15313,2.84835,2.47136,13.09,5.31971,818,353,9.8076,Yes,FCC/HCP (α),Laser Additive Manufacturing,700°C/2h → Furnace Cool,Slow
60,24,11,5,45.0858,247.844,4.15427,2.84623,2.46979,13.39,5.31602,830,354,12.3844,Yes,FCC/HCP (α),Powder Metallurgy (Sintering),800°C/1h → Water Quench,Slow
59,24,11,6,46.2632,217.312,4.15543,2.84408,2.46821,13.69,5.31229,842,410,5.20626,Yes,FCC/HCP (α),Laser Additive Manufacturing,800°C/1h → Water Quench,Slow
58,24,11,7,47.7873,192.487,4.1566,2.8419,2.46659,13.99,5.3085,854,496,8.63882,Yes,FCC/HCP (α),Laser Additive Manufacturing,800°C/1h → Water Quench,Slow
57,24,11,8,49.5288,173.818,4.15779,2.83969,2.46496,14.29,5.30465,866,367,10.0391,Yes,FCC/HCP (α),Arc Melting,700°C/2h → Furnace Cool,Slow
56,24,11,9,51.3891,161.503,4.15901,2.83744,2.4633,14.59,5.30074,878,494,8.49216,Yes,FCC/HCP (α),Arc Melting,500°C/4h → Air Cool,Slow
55,24,11,10,53.2962,155.506,4.16024,2.83516,2.46161,14.89,5.29677,890,423,9.302,Yes,FCC/HCP (α),Powder Metallurgy (Sintering),700°C/2h → Furnace Cool,Slow
54,24,11,11,55.1994,155.587,4.16148,2.83284,2.4599,15.19,5.29274,902,449,13.2401,Yes,FCC/HCP (α),Arc Melting,500°C/4h → Air Cool,Slow
53,24,11,12,57.0648,161.353,4.16275,2.83049,2.45815,15.49,5.28864,914,497,14.8658,Yes,FCC/HCP (α),Cold Rolling + Annealing,1000°C/1h → Water Quench,Slow
60,24,12,4,44.3826,278.491,4.15404,2.85063,2.47468,13.56,5.32531,828,433,9.84378,Yes,FCC/HCP (α),Arc Melting,500°C/4h → Air Cool,Slow
59,24,12,5,45.3682,248.734,4.15519,2.84852,2.47314,13.86,5.32165,840,424,8.29234,Yes,FCC/HCP (α),Arc Melting,800°C/1h → Water Quench,Slow
58,24,12,6,46.7554,224.688,4.15636,2.84637,2.47156,14.16,5.31794,852,447,13.421,Yes,FCC/HCP (α),Laser Additive Manufacturing,1000°C/1h → Water Quench,Slow
57,24,12,7,48.4038,206.778,4.15755,2.8442,2.46997,14.46,5.31417,864,483,10.6722,Yes,FCC/HCP (α),Cold Rolling + Annealing,800°C/1h → Water Quench,Slow
56,24,12,8,50.2044,195.182,4.15876,2.84199,2.46835,14.76,5.31034,876,370,10.5659,Yes,FCC/HCP (α),Powder Metallurgy (Sintering),1000°C/1h → Water Quench,Slow
55,24,12,9,52.0765,189.845,4.15998,2.83974,2.4667,15.06,5.30645,888,371,9.15713,Yes,FCC/HCP (α),Arc Melting,700°C/2h → Furnace Cool,Slow
54,24,12,10,53.9627,190.514,4.16123,2.83747,2.46503,15.36,5.3025,900,377,10.1523,Yes,FCC/HCP (α),Arc Melting,500°C/4h → Air Cool,Slow
53,24,12,11,55.8234,196.786,4.16249,2.83515,2.46333,15.66,5.29849,912,390,8.43529,Yes,FCC/HCP (α),Cold Rolling + Annealing,700°C/2h → Furnace Cool,Slow
52,24,12,12,57.6327,208.153,4.16378,2.8328,2.46161,15.96,5.29441,924,488,12.7741,Yes,FCC/HCP (α),Powder Metallurgy (Sintering),700°C/2h → Furnace Cool,Slow